Wavelength		Real(n0)
3.14159265                   1.0  

              Real(ni)           Im(ni)         Radius i                Xi                 Yi                 Zi                        maxi
              2.516              0.120		1.000000000e+00		0.000000000e+00    0.000000000e+00    0.000000000e+00		3
              1.625              0.015		1.000000000e+00		0.000000000e+00    0.000000000e+00    6.400000000e+00		3
              1.625              0.015		1.000000000e+00		0.000000000e+00    0.000000000e+00   -6.400000000e+00		3
              1.625              0.015		1.000000000e+00		6.400000000e+00    0.000000000e+00    0.000000000e+00 		3
              1.625              0.015		1.000000000e+00		-6.400000000e+00    0.000000000e+00    0.000000000e+00 		3 
              1.300              0.080		1.000000000e+00		 -6.400000000e+00    0.000000000e+00    6.400000000e+00 	3
              1.300              0.080		1.000000000e+00		-6.400000000e+00    0.000000000e+00   -6.400000000e+00		3
              1.300              0.080		1.000000000e+00		6.400000000e+00    0.000000000e+00    6.400000000e+00		3
              1.300              0.080		1.000000000e+00		6.400000000e+00    0.000000000e+00   -6.400000000e+00		3
